Day fraction since midnight on 	Accumulator pressure (Pa)	DO probe (mg/L)	Source pressure (Pa)	air valve control ()	Max calibration pressure (Pa)	source pressure (Pa)	Max calibration pressure ()	Delta P ()	air flow rate(R * T )/ V ()	Fill time (s)	air fill model (Pa)
0.6453245999	39790.9101562500	7.1739225388	102360.1875000000	0.0562628248	61416.1125000000	102360.1875000000	61416.1125000000	56416.1125000000	1349.7000000000	41.7990016300	34832.4186778069
0.6453825838	39779.1210937500	4.6401243210	102279.2890625000	0.0562785317	61367.5734375000	102279.2890625000	61367.5734375000	56367.5734375000	1349.7000000000	41.7630387771	41580.3973722458
0.6454404276	42619.6289062500	2.8357830048	102213.5703125000	0.0590418285	61328.1421875000	102213.5703125000	61328.1421875000	56328.1421875000	1349.7000000000	41.7338239516	9899.9659265518
0.6454983319	51112.2734375000	1.9128289223	102173.4531250000	0.0635841265	61304.0718750000	102173.4531250000	61304.0718750000	56304.0718750000	1349.7000000000	41.7159901274	16611.8902273655
0.6455561173	58285.2109375000	1.4283752441	102027.9062500000	0.0676999314	61216.7437500000	102027.9062500000	61216.7437500000	56216.7437500000	1349.7000000000	41.6512882492	23350.4719063759
0.6456140846	63095.3515625000	1.1555165052	101918.7265625000	0.0708885382	61151.2359375000	101918.7265625000	61151.2359375000	56151.2359375000	1349.7000000000	41.6027531581	30096.7322232246
0.6456718497	67260.2500000000	1.0773404837	101832.3125000000	0.0737246061	61099.3875000000	101832.3125000000	61099.3875000000	56099.3875000000	1349.7000000000	41.5643383715	36860.0437370300
0.6457297186	69712.1484375000	1.1402415037	101782.0390625000	0.0767777618	61069.2234375000	101782.0390625000	61069.2234375000	56069.2234375000	1349.7000000000	41.5419896551	43608.3809094906
0.6457876745	71859.9921875000	1.3188511133	101739.8437500000	0.0781968618	61043.9062500000	101739.8437500000	61043.9062500000	56043.9062500000	1349.7000000000	41.5232320145	50353.0560712814
0.6458455678	72450.2109375000	1.5941424370	101737.4765625000	0.0787729261	61042.4859375000	101737.4765625000	61042.4859375000	56042.4859375000	1349.7000000000	41.5221796973	57104.3556752205
0.6459033725	72534.8515625000	1.9046814442	101742.7968750000	0.0785622228	61045.6781250000	101742.7968750000	61045.6781250000	56045.6781250000	1349.7000000000	41.5245448063	61045.6781250000
0.6459612870	71907.3359375000	2.2299649715	101688.1171875000	0.0775299906	61012.8703125000	101688.1171875000	61012.8703125000	56012.8703125000	1349.7000000000	41.5002373213	61012.8703125000
0.6460191109	71165.0234375000	2.5832920074	101653.4531250000	0.0764784484	60992.0718750000	101653.4531250000	60992.0718750000	55992.0718750000	1349.7000000000	41.4848276469	60992.0718750000
0.6460769827	70065.5078125000	2.9333176613	101621.1875000000	0.0753270438	60972.7125000000	101621.1875000000	60972.7125000000	55972.7125000000	1349.7000000000	41.4704841817	60972.7125000000
0.6461348651	66538.6640625000	3.2451744080	101567.6875000000	0.0686427365	60940.6125000000	101567.6875000000	60940.6125000000	55940.6125000000	1349.7000000000	41.4467011188	60940.6125000000
0.6461927440	58254.2460937500	3.5692179203	101521.5781250000	0.0644333677	60912.9468750000	101521.5781250000	60912.9468750000	55912.9468750000	1349.7000000000	41.4262035082	60912.9468750000
0.6462505849	51205.2539062500	3.9077153206	101520.2734375000	0.0600557422	60912.1640625000	101520.2734375000	60912.1640625000	55912.1640625000	1349.7000000000	41.4256235182	60912.1640625000
0.6463085461	47101.6679687500	4.2111663818	101514.5390625000	0.0608439642	60908.7234375000	101514.5390625000	60908.7234375000	55908.7234375000	1349.7000000000	41.4230743406	60908.7234375000
