Day fraction since midnight on 	Accumulator pressure (Pa)	DO probe (mg/L)	Source pressure (Pa)	air valve control ()	Max calibration pressure (Pa)	source pressure (Pa)	Max calibration pressure ()	Delta P ()	air flow rate(R * T )/ V ()	Fill time (s)	air fill model (Pa)
0.6311287881	41171.5195312500	0.9459229112	101427.0625000000	0.0649099554	60856.2375000000	101427.0625000000	60856.2375000000	55856.2375000000	1595.1000000000	35.0173891919	60856.2375000000
0.6311866189	41380.6835937500	0.8487129807	101418.1484375000	0.0656369779	60850.8890625000	101418.1484375000	60850.8890625000	55850.8890625000	1595.1000000000	35.0140361498	7231.0720726967
0.6312444931	46700.4921875000	0.7616487145	101417.4687500000	0.0690836307	60850.4812500000	101417.4687500000	60850.4812500000	55850.4812500000	1595.1000000000	35.0137804840	15208.6188552380
0.6313023708	52250.9375000000	0.7269808054	101382.5468750000	0.0719541145	60829.5281250000	101382.5468750000	60829.5281250000	55829.5281250000	1595.1000000000	35.0006445521	23231.6641457081
0.6313602357	55204.4921875000	0.8650149703	101313.2109375000	0.0736779765	60787.9265625000	101313.2109375000	60787.9265625000	55787.9265625000	1595.1000000000	34.9745637029	31142.8445177555
0.6314180556	58438.8632812500	1.1505366564	101217.1406250000	0.0765055950	60730.2843750000	101217.1406250000	60730.2843750000	55730.2843750000	1595.1000000000	34.9384266660	39157.7833019733
0.6314759530	61558.1992187500	1.4633553028	101113.0156250000	0.0789270656	60667.8093750000	101113.0156250000	60667.8093750000	55667.8093750000	1595.1000000000	34.8992598426	47136.5158645153
0.6315338194	63888.3164062500	1.7766777277	100999.8750000000	0.0810868733	60599.9250000000	100999.8750000000	60599.9250000000	55599.9250000000	1595.1000000000	34.8567017742	55081.1779784679
0.6315917242	65672.5625000000	2.1057388783	100875.9765625000	0.0828779050	60525.5859375000	100875.9765625000	60525.5859375000	55525.5859375000	1595.1000000000	34.8100971334	60525.5859375000
0.6316496075	67104.0937500000	2.4037451744	100754.3828125000	0.0844837813	60452.6296875000	100754.3828125000	60452.6296875000	55452.6296875000	1595.1000000000	34.7643594054	60452.6296875000
0.6317074096	68145.9062500000	2.7558078766	100638.7734375000	0.0855518311	60383.2640625000	100638.7734375000	60383.2640625000	55383.2640625000	1595.1000000000	34.7208727117	60383.2640625000
0.6317652848	68780.9375000000	3.0865786076	100488.7265625000	0.0865432968	60293.2359375000	100488.7265625000	60293.2359375000	55293.2359375000	1595.1000000000	34.6644322848	60293.2359375000
0.6318232265	69291.7890625000	3.3413963318	100357.1562500000	0.0873132056	60214.2937500000	100357.1562500000	60214.2937500000	55214.2937500000	1595.1000000000	34.6149418532	60214.2937500000
0.6318810783	69615.9453125000	3.5858745575	100221.4843750000	0.0879312029	60132.8906250000	100221.4843750000	60132.8906250000	55132.8906250000	1595.1000000000	34.5639086107	60132.8906250000
0.6319388585	69773.3125000000	3.8166544437	100097.4218750000	0.0881664856	60058.4531250000	100097.4218750000	60058.4531250000	55058.4531250000	1595.1000000000	34.5172422575	60058.4531250000
0.6319968462	69839.2812500000	4.0395307541	99920.6093750000	0.0884183752	59952.3656250000	99920.6093750000	59952.3656250000	54952.3656250000	1595.1000000000	34.4507338882	59952.3656250000
0.6320547105	69951.3046875000	4.2900810242	99738.7265625000	0.0890085850	59843.2359375000	99738.7265625000	59843.2359375000	54843.2359375000	1595.1000000000	34.3823183108	59843.2359375000
0.6321124902	70008.5312500000	4.5135354996	99522.5234375000	0.0893682542	59713.5140625000	99522.5234375000	59713.5140625000	54713.5140625000	1595.1000000000	34.3009930804	59713.5140625000
0.6321704518	69962.9687500000	4.7417020798	99315.2343750000	0.0896144683	59589.1406250000	99315.2343750000	59589.1406250000	54589.1406250000	1595.1000000000	34.2230208921	59589.1406250000
0.6322282720	69919.0468750000	4.9542818069	99125.8359375000	0.0898077201	59475.5015625000	99125.8359375000	59475.5015625000	54475.5015625000	1595.1000000000	34.1517782976	59475.5015625000
0.6322861651	69861.1640625000	5.1593708992	98947.3671875000	0.0900394794	59368.4203125000	98947.3671875000	59368.4203125000	54368.4203125000	1595.1000000000	34.0846469265	59368.4203125000
0.6323440149	69774.2109375000	5.3486952782	98770.8828125000	0.0901567885	59262.5296875000	98770.8828125000	59262.5296875000	54262.5296875000	1595.1000000000	34.0182619820	59262.5296875000
