Day fraction since midnight on 	Accumulator pressure (Pa)	DO probe (mg/L)	Source pressure (Pa)	air valve control ()	Max calibration pressure (Pa)	source pressure (Pa)	Max calibration pressure ()	Delta P ()	Fill time (s)	air fill model (Pa)
0.6501273502	30406.4746093750	0.7862031460	98558.2812500000	0.0360901858	59134.9687500000	98558.2812500000	59134.9687500000	54134.9687500000	58.5242905405	59134.9687500000
0.6501852116	28123.1796875000	0.7257199287	98440.7812500000	0.0357836686	59064.4687500000	98440.7812500000	59064.4687500000	54064.4687500000	58.4480743243	8929.2589902878
0.6502430972	28147.4179687500	0.7396346927	98329.8828125000	0.0358199160	58997.9296875000	98329.8828125000	58997.9296875000	53997.9296875000	58.3761402027	13555.1115870476
0.6503008637	30101.0390625000	0.8847898245	98167.9921875000	0.0361198321	58900.7953125000	98167.9921875000	58900.7953125000	53900.7953125000	58.2711300676	18171.2839245796
0.6503588304	33474.9921875000	1.1002967358	98007.8203125000	0.0370485328	58804.6921875000	98007.8203125000	58804.6921875000	53804.6921875000	58.1672347973	22803.9864063263
0.6504166057	38200.4882812500	1.3127400875	97838.0390625000	0.0385890232	58702.8234375000	97838.0390625000	58702.8234375000	53702.8234375000	58.0571064189	27421.4475631714
0.6504740977	42323.2578125000	1.4901847839	97669.3671875000	0.0389613300	58601.6203125000	97669.3671875000	58601.6203125000	53601.6203125000	57.9476976351	32017.1655178070
0.6505321497	39622.0195312500	1.6512918472	97503.8828125000	0.0381691381	58502.3296875000	97503.8828125000	58502.3296875000	53502.3296875000	57.8403564189	36655.7259082794
0.6505902845	35280.9375000000	1.7910826206	97344.9140625000	0.0365029667	58406.9484375000	97344.9140625000	58406.9484375000	53406.9484375000	57.7372415541	41311.0625624657
0.6506481250	28870.7050781250	1.9875675440	97193.8125000000	0.0359456187	58316.2875000000	97193.8125000000	58316.2875000000	53316.2875000000	57.6392297297	45924.4583368301
0.6507055281	27390.7441406250	2.2564957142	97041.1953125000	0.0357137952	58224.7171875000	97041.1953125000	58224.7171875000	53224.7171875000	57.5402347973	50512.9986882210
0.6507636164	24076.4375000000	2.4540810585	96887.6953125000	0.0350854018	58132.6171875000	96887.6953125000	58132.6171875000	53132.6171875000	57.4406672297	55153.7569522858
0.6508211854	22122.8417968750	2.5553262234	96645.3515625000	0.0347246518	57987.2109375000	96645.3515625000	57987.2109375000	52987.2109375000	57.2834712838	57987.2109375000
0.6508796596	22097.5410156250	2.6757073402	96814.2031250000	0.0344769562	58088.5218750000	96814.2031250000	58088.5218750000	53088.5218750000	57.3929966216	58088.5218750000
0.6509375529	21258.4023437500	2.8183767796	97752.4687500000	0.0355166786	58651.4812500000	97752.4687500000	58651.4812500000	53651.4812500000	58.0016013514	58651.4812500000
0.6509951830	22073.2851562500	2.9413337708	98734.6796875000	0.0351480382	59240.8078125000	98734.6796875000	59240.8078125000	54240.8078125000	58.6387111486	59240.8078125000
0.6510527276	22559.0000000000	3.0560829639	99786.0078125000	0.0341924729	59871.6046875000	99786.0078125000	59871.6046875000	54871.6046875000	59.3206537162	59871.6046875000
0.6511107232	22314.4296875000	3.1480410099	100756.1640625000	0.0342235700	60453.6984375000	100756.1640625000	60453.6984375000	55453.6984375000	59.9499442568	60453.6984375000
0.6511684741	22879.3183593750	3.2554163933	101049.2343750000	0.0347199449	60629.5406250000	101049.2343750000	60629.5406250000	55629.5406250000	60.1400439189	60629.5406250000
0.6512268952	23138.4960937500	3.3496041298	100790.9453125000	0.0343094612	60474.5671875000	100790.9453125000	60474.5671875000	55474.5671875000	59.9725050676	60474.5671875000
0.6512845167	21629.9082031250	3.4724907875	100600.6406250000	0.0333906979	60360.3843750000	100600.6406250000	60360.3843750000	55360.3843750000	59.8490641892	60360.3843750000
0.6513420891	21821.9394531250	3.6416869164	100338.1171875000	0.0335908514	60202.8703125000	100338.1171875000	60202.8703125000	55202.8703125000	59.6787787162	60202.8703125000
0.6514001124	22159.4589843750	3.8044612408	100105.5390625000	0.0341009145	60063.3234375000	100105.5390625000	60063.3234375000	55063.3234375000	59.5279172297	60063.3234375000
0.6514576176	20181.3339843750	3.9381289482	99952.4296875000	0.0340830438	59971.4578125000	99952.4296875000	59971.4578125000	54971.4578125000	59.4286030405	59971.4578125000
0.6515160939	22801.3496093750	4.0786857605	99824.8125000000	0.0344008796	59894.8875000000	99824.8125000000	59894.8875000000	54894.8875000000	59.3458243243	59894.8875000000
0.6515733407	24969.1484375000	4.3230614662	99637.8281250000	0.0344536476	59782.6968750000	99637.8281250000	59782.6968750000	54782.6968750000	59.2245371622	59782.6968750000
0.6516320140	26852.2988281250	4.4656443596	99493.7343750000	0.0353782940	59696.2406250000	99493.7343750000	59696.2406250000	54696.2406250000	59.1310709459	59696.2406250000
0.6516895919	26887.7910156250	4.5532655716	99340.1796875000	0.0352456866	59604.1078125000	99340.1796875000	59604.1078125000	54604.1078125000	59.0314679054	59604.1078125000
0.6517476327	26528.8515625000	4.6268930435	99176.0546875000	0.0349133408	59505.6328125000	99176.0546875000	59505.6328125000	54505.6328125000	58.9250084459	59505.6328125000
0.6518053388	27159.2851562500	4.7117590904	99023.5546875000	0.0350521154	59414.1328125000	99023.5546875000	59414.1328125000	54414.1328125000	58.8260895270	59414.1328125000
0.6518631352	25663.2070312500	4.7902779579	98883.0390625000	0.0343930651	59329.8234375000	98883.0390625000	59329.8234375000	54329.8234375000	58.7349442568	59329.8234375000
0.6519213301	23812.9687500000	4.9010257721	98740.2578125000	0.0348302332	59244.1546875000	98740.2578125000	59244.1546875000	54244.1546875000	58.6423293919	59244.1546875000
